Folder: ethical_necromancy/Felix Polymers Impedence

File: 1M_NaCl.csv
#Digilent WaveForms Impedance Analyzer
#Device Name: Discovery3
#Serial Number: SN:210415B99FD9
#Date Time:
#Digilent WaveForms Impedance Analyzer Trace#Trace: Trace
#Start: 1000 Hz
#Stop: 1e+06 Hz
#Steps: 151
#Resistor: 1000 Ω
#Average: 1
#ProbeResistance: 1.008e+06 Ω
#ProbeCapacitance: 4e-11 F
#Compensation:none
#Wavegen: Wavegen1
#Amplitude: 1 V
#Offset: 0 V
#Amplification: 1 X
#Settle: 0.01 s
#MinPeriods: 16
#Scale: Logarithmic
#Channel: Channel 1
#Range: 5.24066 V
#Offset: 0.000240203 V
#Attenuation: 1 X
#Channel: Channel 2
#Range: 5.25098 V
#Offset: 0.000230232 V
#Attenuation: 1 X

Frequency (Hz),Trace th (deg),Trace |Z| (Ohm)
1000,-47.8779,1031.85
1047.13,-46.8096,995.434
1096.48,-45.9783,968.513
1148.15,-45.2976,947.422
1202.26,-44.6474,927.938
1258.93,-44.0265,910.229
1318.26,-43.3985,893.293
1380.38,-42.7515,876.85
1445.44,-42.1352,861.643
1513.56,-41.5047,846.789
1584.89,-40.8472,832.349
1659.59,-40.1964,818.608
1737.8,-39.5522,805.608
1819.7,-38.8747,792.558
1905.46,-38.2004,780.358
1995.26,-37.5058,768.352
2089.3,-36.8133,757.114
2187.76,-36.1193,746.098
2290.87,-35.4096,735.515
2398.83,-34.6946,725.144
2511.89,-33.9648,715.243
2630.27,-33.2402,705.872
2754.23,-32.506,696.796
2884.03,-31.7637,687.839
3019.95,-31.0267,679.564
3162.28,-30.3055,671.52
3311.31,-29.57,663.954
3467.37,-28.8561,656.601
3630.78,-28.122,649.523
3801.89,-27.4098,642.786
3981.07,-26.682,636.267
4168.69,-25.9601,630.33
4365.16,-25.2633,624.455
4570.88,-24.5511,618.805
4786.3,-23.8598,613.384
5011.87,-23.1647,608.378
5248.07,-22.4971,603.612
5495.41,-21.8419,599.214
5754.4,-21.1903,594.784
6025.6,-20.5491,590.616
6309.57,-19.9179,586.602
6606.93,-19.2985,582.883
6918.31,-18.7057,579.476
7244.36,-18.1163,576.041
7585.78,-17.5631,572.706
7943.28,-16.98,569.555
8317.64,-16.4448,566.584
8709.64,-15.9117,563.87
9120.11,-15.3922,561.367
9549.93,-14.8937,558.853
10000,-14.4098,556.395
10471.3,-13.9303,554.078
10964.8,-13.4785,551.827
11481.5,-13.0247,549.786
12022.6,-12.5943,547.843
12589.3,-12.1647,546.007
13182.6,-11.7486,544.103
13803.8,-11.3667,542.268
14454.4,-10.9739,540.595
15135.6,-10.6011,539.005
15848.9,-10.2391,537.565
16595.9,-9.87804,536.09
17378,-9.55302,534.666
18197,-9.21336,533.28
19054.6,-8.89474,531.94
19952.6,-8.58429,530.703
20893,-8.28675,529.636
21877.6,-7.99161,528.521
22908.7,-7.7082,527.402
23988.3,-7.42181,526.23
25118.9,-7.16064,525.207
26302.7,-6.89688,524.274
27542.3,-6.64992,523.294
28840.3,-6.39622,522.487
30199.5,-6.17867,521.655
31622.8,-5.92626,520.83
33113.1,-5.71763,520.052
34673.7,-5.48447,519.271
36307.8,-5.29263,518.57
38018.9,-5.0804,517.948
39810.7,-4.87665,517.191
41686.9,-4.68689,516.578
43651.6,-4.49822,516.064
45708.8,-4.31701,515.509
47863,-4.1364,514.883
50118.7,-3.98177,514.369
52480.7,-3.7949,513.671
54954.1,-3.64615,513.236
57544,-3.473,512.847
60256,-3.3095,512.472
63095.7,-3.17211,512.099
66069.3,-3.03067,511.529
69183.1,-2.90281,511.138
72443.6,-2.71997,510.772
75857.8,-2.57768,510.284
79432.8,-2.46481,510.054
83176.4,-2.32555,509.687
87096.4,-2.18631,509.242
91201.1,-2.07017,509.074
95499.3,-1.9247,508.789
100000,-1.80369,508.736
104713,-1.68795,508.488
109648,-1.56379,508.116
114815,-1.46265,507.682
120226,-1.33181,507.667
125893,-1.19856,507.391
131826,-1.12051,507.458
138038,-0.981158,507.165
144544,-0.877605,507.159
151356,-0.784228,506.917
158489,-0.674026,506.653
165959,-0.529872,506.384
173780,-0.420944,506.492
181970,-0.314752,506.56
190546,-0.191149,506.235
199526,-0.0937937,506.313
208930,0.0255262,506.222
218776,0.130064,506.382
229087,0.268494,506.37
239883,0.368626,506.53
251189,0.497499,506.529
263027,0.61209,506.522
275423,0.737567,506.63
288403,0.877684,506.739
301995,0.96646,506.998
316228,1.09839,507.153
331131,1.24115,507.268
346737,1.3717,507.63
363078,1.50227,507.891
380189,1.65204,508.161
398107,1.74568,508.607
416869,1.90752,508.946
436516,2.03159,509.257
457088,2.18218,509.709
478630,2.34064,510.39
501187,2.49006,510.817
524807,2.64499,511.477
549541,2.79553,512.15
575440,2.95032,512.765
602560,3.09115,513.51
630957,3.258,514.315
660693,3.4151,515.245
691831,3.59817,516.363
724436,3.74567,517.426
758578,3.91466,518.598
794328,4.08986,519.751
831764,4.24852,521.22
870964,4.42471,522.475
912011,4.58712,524.071
954993,4.7348,525.577
1000000,4.92001,527.452

File: 1M_NaCl_with_wire.csv
#Digilent WaveForms Impedance Analyzer
#Device Name: Discovery3
#Serial Number: SN:210415B99FD9
#Date Time:
#Digilent WaveForms Impedance Analyzer Trace#Trace: Trace
#Start: 1000 Hz
#Stop: 1e+06 Hz
#Steps: 151
#Resistor: 1000 Ω
#Average: 1
#ProbeResistance: 1.008e+06 Ω
#ProbeCapacitance: 4e-11 F
#Compensation:none
#Wavegen: Wavegen1
#Amplitude: 1 V
#Offset: 0 V
#Amplification: 1 X
#Settle: 0.01 s
#MinPeriods: 16
#Scale: Logarithmic
#Channel: Channel 1
#Range: 5.24066 V
#Offset: 0.000240203 V
#Attenuation: 1 X
#Channel: Channel 2
#Range: 5.25098 V
#Offset: 0.000230232 V
#Attenuation: 1 X

Frequency (Hz),Trace th (deg),Trace |Z| (Ohm)
1000,-49.8644,1010.69
1047.13,-49.1384,974.214
1096.48,-48.5197,945.208
1148.15,-47.9567,920.814
1202.26,-47.4657,900.352
1258.93,-47.0026,881.92
1318.26,-46.5231,863.53
1380.38,-45.9979,844.974
1445.44,-45.4771,827.641
1513.56,-44.965,811.716
1584.89,-44.4415,796.431
1659.59,-43.9156,781.397
1737.8,-43.3429,766.224
1819.7,-42.7682,751.425
1905.46,-42.1868,737.804
1995.26,-41.6103,725.005
2089.3,-41.0125,712.282
2187.76,-40.3884,699.368
2290.87,-39.7444,686.642
2398.83,-39.0887,674.554
2511.89,-38.4517,663.579
2630.27,-37.8025,653.297
2754.23,-37.1299,642.759
2884.03,-36.4359,632.287
3019.95,-35.7373,621.885
3162.28,-35.0394,612.594
3311.31,-34.3367,603.693
3467.37,-33.6362,595.433
3630.78,-32.9204,587.096
3801.89,-32.1827,578.603
3981.07,-31.4588,570.783
4168.69,-30.7358,563.513
4365.16,-30.0297,556.69
4570.88,-29.3095,550.183
4786.3,-28.5683,543.631
5011.87,-27.8552,537.229
5248.07,-27.1307,531.189
5495.41,-26.427,525.694
5754.4,-25.7381,520.581
6025.6,-25.0588,515.727
6309.57,-24.3613,510.658
6606.93,-23.6853,505.924
6918.31,-23.0253,501.238
7244.36,-22.3737,497.214
7585.78,-21.7288,493.515
7943.28,-21.1162,489.63
8317.64,-20.4933,485.94
8709.64,-19.8926,482.325
9120.11,-19.2982,478.843
9549.93,-18.7066,475.622
10000,-18.1505,472.798
10471.3,-17.6039,470.024
10964.8,-17.0698,467.426
11481.5,-16.5347,464.654
12022.6,-16.0378,462.106
12589.3,-15.5354,459.503
13182.6,-15.0426,457.177
13803.8,-14.5689,455.135
14454.4,-14.1179,453.075
15135.6,-13.6696,451.169
15848.9,-13.235,449.191
16595.9,-12.8092,447.142
17378,-12.3973,445.296
18197,-11.9869,443.549
19054.6,-11.6059,442.128
19952.6,-11.2438,440.562
20893,-10.8774,439.135
21877.6,-10.5062,437.368
22908.7,-10.1523,435.823
23988.3,-9.81192,434.405
25118.9,-9.46322,433.102
26302.7,-9.1602,432.083
27542.3,-8.84281,431.07
28840.3,-8.53478,429.7
30199.5,-8.22052,428.516
31622.8,-7.94388,427.461
33113.1,-7.66137,426.364
34673.7,-7.37785,425.477
36307.8,-7.12557,424.642
38018.9,-6.86257,423.711
39810.7,-6.62018,422.75
41686.9,-6.33753,421.838
43651.6,-6.11116,420.891
45708.8,-5.86918,419.993
47863,-5.64048,419.449
50118.7,-5.40007,418.702
52480.7,-5.1868,418.074
54954.1,-4.9804,417.392
57544,-4.7795,416.809
60256,-4.5566,416.12
63095.7,-4.36517,415.377
66069.3,-4.14421,414.674
69183.1,-3.95082,414.29
72443.6,-3.7523,413.595
75857.8,-3.5494,413.395
79432.8,-3.34805,412.818
83176.4,-3.17087,412.438
87096.4,-3.01094,411.938
91201.1,-2.81223,411.441
95499.3,-2.61662,411.019
100000,-2.44463,410.367
104713,-2.26545,410.023
109648,-2.11709,409.85
114815,-1.92864,409.586
120226,-1.76858,409.444
125893,-1.56848,409.068
131826,-1.41888,408.931
138038,-1.2198,408.32
144544,-1.04364,408.178
151356,-0.879226,407.769
158489,-0.698712,407.54
165959,-0.521121,407.351
173780,-0.351622,407.249
181970,-0.167839,407.582
190546,0.0107031,407.373
199526,0.193667,407.074
208930,0.382819,407.055
218776,0.589583,406.851
229087,0.773849,407.034
239883,0.962045,406.971
251189,1.13394,407.165
263027,1.34478,407.116
275423,1.55388,407.227
288403,1.77124,407.407
301995,1.97992,407.625
316228,2.18916,407.807
331131,2.39311,407.882
346737,2.64405,408.221
363078,2.87117,408.617
380189,3.09546,409.07
398107,3.34347,409.536
416869,3.55357,410.02
436516,3.81146,410.729
457088,4.04495,411.129
478630,4.29609,411.747
501187,4.59318,412.414
524807,4.83396,413.318
549541,5.11192,414.254
575440,5.40021,415.216
602560,5.66757,416.337
630957,5.9603,417.703
660693,6.24949,418.718
691831,6.56982,420.127
724436,6.84943,421.49
758578,7.14517,422.963
794328,7.44284,424.905
831764,7.74125,426.732
870964,8.04613,428.687
912011,8.34617,431.042
954993,8.65991,433.224
1000000,8.96537,435.636

File: DIRTY_1M_NaCl.csv
#Digilent WaveForms Impedance Analyzer
#Device Name: Discovery3
#Serial Number: SN:210415B99FD9
#Date Time:
#Digilent WaveForms Impedance Analyzer Trace#Trace: Trace
#Start: 1000 Hz
#Stop: 1e+06 Hz
#Steps: 151
#Resistor: 100 Ω
#Average: 1
#ProbeResistance: 1.008e+06 Ω
#ProbeCapacitance: 4e-11 F
#Compensation:none
#Wavegen: Wavegen1
#Amplitude: 1 V
#Offset: 0 V
#Amplification: 1 X
#Settle: 0.01 s
#MinPeriods: 16
#Scale: Logarithmic
#Channel: Channel 1
#Range: 5.24066 V
#Offset: 0.000240203 V
#Attenuation: 1 X
#Channel: Channel 2
#Range: 5.25098 V
#Offset: 0.000230232 V
#Attenuation: 1 X

Frequency (Hz),Trace th (deg),Trace |Z| (Ohm)
1000,-63.2021,17.1431
1047.13,-62.5712,16.4829
1096.48,-61.9503,15.8743
1148.15,-61.3331,15.3427
1202.26,-60.7013,14.9005
1258.93,-60.0915,14.4142
1318.26,-59.4312,13.9213
1380.38,-58.7615,13.4777
1445.44,-58.0497,13.0869
1513.56,-57.3578,12.7193
1584.89,-56.6539,12.3063
1659.59,-55.8913,11.9165
1737.8,-55.1149,11.5761
1819.7,-54.347,11.2523
1905.46,-53.5074,10.928
1995.26,-52.6797,10.6106
2089.3,-51.8187,10.3002
2187.76,-50.9587,10.0202
2290.87,-50.0635,9.77044
2398.83,-49.1861,9.52198
2511.89,-48.2491,9.26269
2630.27,-47.3103,9.00391
2754.23,-46.3121,8.77822
2884.03,-45.3887,8.57354
3019.95,-44.4505,8.38148
3162.28,-43.4384,8.20276
3311.31,-42.4299,8.00635
3467.37,-41.3882,7.8172
3630.78,-40.4114,7.65532
3801.89,-39.3342,7.50872
3981.07,-38.336,7.37126
4168.69,-37.3333,7.23381
4365.16,-36.2624,7.09937
4570.88,-35.2599,6.96705
4786.3,-34.2371,6.86129
5011.87,-33.2485,6.76351
5248.07,-32.2428,6.66004
5495.41,-31.2223,6.5598
5754.4,-30.2676,6.46088
6025.6,-29.3041,6.38419
6309.57,-28.3539,6.31584
6606.93,-27.4911,6.24583
6918.31,-26.5622,6.18182
7244.36,-25.6126,6.10967
7585.78,-24.7669,6.04473
7943.28,-23.9663,5.99022
8317.64,-23.1569,5.94138
8709.64,-22.3489,5.90479
9120.11,-21.5154,5.85943
9549.93,-20.7946,5.81391
10000,-20.1056,5.76278
10471.3,-19.342,5.72795
10964.8,-18.6488,5.70152
11481.5,-18.0109,5.66679
12022.6,-17.3823,5.63594
12589.3,-16.7814,5.60056
13182.6,-16.1504,5.56904
13803.8,-15.6125,5.53576
14454.4,-14.9837,5.51167
15135.6,-14.4449,5.50008
15848.9,-13.8953,5.47776
16595.9,-13.4107,5.45121
17378,-12.9285,5.42755
18197,-12.5286,5.40673
19054.6,-11.9623,5.39484
19952.6,-11.5854,5.37789
20893,-11.155,5.36843
21877.6,-10.7451,5.3362
22908.7,-10.3594,5.31794
23988.3,-9.98435,5.30415
25118.9,-9.54116,5.29165
26302.7,-9.18593,5.27606
27542.3,-8.9276,5.26839
28840.3,-8.46552,5.25012
30199.5,-8.16597,5.24253
31622.8,-7.81116,5.2251
33113.1,-7.54434,5.22074
34673.7,-7.27665,5.20268
36307.8,-6.87977,5.19111
38018.9,-6.55272,5.18418
39810.7,-6.35128,5.17879
41686.9,-5.97831,5.16383
43651.6,-5.6791,5.15311
45708.8,-5.41797,5.15177
47863,-5.13744,5.13125
50118.7,-4.91034,5.12655
52480.7,-4.66004,5.11434
54954.1,-4.43701,5.12178
57544,-4.23991,5.10546
60256,-3.84947,5.10241
63095.7,-3.61985,5.08734
66069.3,-3.51697,5.0775
69183.1,-3.14085,5.07596
72443.6,-2.9198,5.06507
75857.8,-2.61897,5.06777
79432.8,-2.35733,5.06845
83176.4,-2.27487,5.05283
87096.4,-1.94706,5.05485
91201.1,-1.8514,5.04165
95499.3,-1.56391,5.0395
100000,-1.39779,5.03021
104713,-0.894744,5.02843
109648,-0.673025,5.02258
114815,-0.696781,5.02482
120226,-0.281033,5.0297
125893,-0.0374086,5.02595
131826,0.0284021,5.0202
138038,0.307798,5.01597
144544,0.752579,5.00497
151356,0.88168,5.00703
158489,1.05678,4.98257
165959,1.41873,5.00843
173780,1.79629,5.00312
181970,1.8878,5.00642
190546,2.29685,5.00493
199526,2.48966,5.00455
208930,2.79989,5.00539
218776,3.19102,5.00153
229087,3.42064,4.99825
239883,3.88024,5.00379
251189,4.07141,4.99273
263027,4.41687,4.99651
275423,4.81513,5.00206
288403,5.22541,5.01422
301995,5.48795,4.9937
316228,5.89441,5.00854
331131,6.29531,5.0238
346737,6.70356,5.02028
363078,7.08567,5.01261
380189,7.44442,5.02829
398107,7.87659,5.02621
416869,8.49446,5.04218
436516,8.9524,5.04016
457088,9.31105,5.05474
478630,10.0185,5.0591
501187,10.312,5.07417
524807,11.0135,5.07593
549541,11.4418,5.08747
575440,12.0129,5.09806
602560,12.7523,5.11736
630957,13.4065,5.12795
660693,13.9814,5.14165
691831,14.7422,5.17195
724436,15.3844,5.18025
758578,16.0373,5.20146
794328,16.9507,5.21814
831764,17.5854,5.25291
870964,18.4594,5.28038
912011,19.2316,5.30257
954993,20.1079,5.33817
1000000,20.8673,5.36326